<?xml version="1.0" encoding="UTF-8"?>
<!-- Use which ever schema declaration is appropriate for the file system used to write or validate the message. 
The default name space is all that is needed for the IG validator> -->
<Bundle xmlns="http://hl7.org/fhir">
	<!-- 		 <Bundle xmlns="http://hl7.org/fhir" xmlns:xsi="http://www.w3.org/2001/XMLSchema-instance" xsi:schemaLocation="http://hl7.org/fhir ../../input-cache/schemas/R4/fhir-single.xsd">  
<Bundle xmlns="http://hl7.org/fhir" xmlns:xsi="http://www.w3.org/2001/XMLSchema-instance" xsi:schemaLocation="http://hl7.org/fhir ./fhir-single.xsd">-->
	<id value="qualityspec-substance-profile-example"/>
	<identifier>
		<system value="urn:ietf:rfc:3986"/>
		<value value="urn:uuid:661d7fb9-d247-48b1-b775-a22245777e34"/>
	</identifier>
	<type value="document"/>
	<timestamp value="2020-02-20T14:30:00+01:00"/>
	<entry>
		<fullUrl value="Composition//qualityspec-substance-profile-example"/>
		<resource>
			<Composition>
				<id value="4a730aed-e4f3-4057-a355-240870e9ca9b"/>
				<meta>
					<profile value="http://hl7.org/fhir/pq-cmc/StructureDefinition/pharmqualityspeccomposition"/>
				</meta>
				<text>
					<status value="generated"/>
					<div xmlns="http://www.w3.org/1999/xhtml">
						<p>
							<b>Generated Substance Narrative with Details TBD</b>
						</p>
					</div>
				</text>
				<extension url="http://hl7.org/fhir/pq-cmc/StructureDefinition/extApplicationNumber">
					<valueString value="123456"/>
				</extension>
				<extension url="http://hl7.org/fhir/pq-cmc/StructureDefinition/extApplicationType">
					<valueCodeableConcept>
						<coding id="ApplicationType">
							<version value="draft"/>
							<code value="C96090"/>
							<display value="Investigational New Drug Application"/>
						</coding>
					</valueCodeableConcept>
				</extension>
				<identifier>
					<value value="4c41161f-faf1-4ed8-8174-644aa319a66f"/>
				</identifier>
				<status value="preliminary"/>
				<type>
					<coding>
						<system value="http://hl7.org/fhir/pq-cmc/CodeSystem/sectionType"/>
						<code value="32S41"/>
						<display value="Substance Specification"/>
					</coding>
				</type>
				<date value="2020-04-02"/>
				<author>
					<reference value="Organization/70fa4a92-f933-4208-8d86-a4c5c70272e1"/>
				</author>
				<title value="Quality Specification for Diphenhydramine"/>
				<section>
					<code>
						<coding>
							<system value="http://hl7.org/fhir/pq-cmc/CodeSystem/sectionType"/>
							<code value="32S41"/>
						</coding>
					</code>
					<text>
						<status value="generated"/>
						<div xmlns="http://www.w3.org/1999/xhtml">Drug Substance</div>
					</text>
					<entry>
						<reference value="Substance/bfc5a7d5-a829-4522-b92c-6f549298fd24"/>
					</entry>
				</section>
				<section>
					<code>
						<coding>
							<system value="http://hl7.org/fhir/pq-cmc/CodeSystem/sectionType"/>
							<code value="SP4151"/>
						</coding>
					</code>
					<text>
						<status value="generated"/>
						<div xmlns="http://www.w3.org/1999/xhtml">Quality Specification</div>
					</text>
					<entry>
						<reference value="PlanDefinition/31651f25-0558-473e-ad1f-c4b78f51033d"/>
					</entry>
				</section>
			</Composition>
		</resource>
	</entry>
	<!-- org -->
	<entry>
		<fullUrl value="urn:uuid:70fa4a92-f933-4208-8d86-a4c5c70272e1"/>
		<resource>
			<Organization>
				<id value="70fa4a92-f933-4208-8d86-a4c5c70272e1"/>
				<meta>
					<profile value="http://hl7.org/fhir/pq-cmc/StructureDefinition/pharmqualityorganization"/>
				</meta>
				<text>
					<status value="generated"/>
					<div xmlns="http://www.w3.org/1999/xhtml">
						<p>
							<b>Sponsor</b>
						</p>
						<p>
							<b>id</b>: 70fa4a92-f933-4208-8d86-a4c5c70272e1</p>
						<p>
							<b>DUNS Number</b>: 005203476</p>
						<p>
							<b>FDA Establishment Identifier</b>: 1410747</p>
						<p>
							<b>active</b>: true</p>
						<p>
							<b>name</b>: Pfanstiehl, Inc.</p>
						<p>
							<b>address</b>: 1219 Glen Rock Ave, Waukegan, Illinois (IL) 60085, United States (USA)</p>
					</div>
				</text>
				<identifier>
					<system value="urn:ISIN:US26483E1001"/>
					<value value="005203476"/>
				</identifier>
				<identifier>
					<system value="https://www.fda.gov"/>
					<value value="1410747"/>
				</identifier>
				<active value="true"/>
				<name value="Pfanstiehl, Inc."/>
				<address>
					<line value="1219 Glen Rock Avenue"/>
					<city value="Waukegan"/>
					<state value="IL"/>
					<postalCode value="60085-6230"/>
					<country value="USA"/>
				</address>
			</Organization>
		</resource>
	</entry>
	<!-- sub -->
	<entry>
		<fullUrl value="urn:uuid:bfc5a7d5-a829-4522-b92c-6f549298fd24"/>
		<resource>
			<Substance>
				<id value="bfc5a7d5-a829-4522-b92c-6f549298fd24"/>
				<meta>
					<profile value="http://hl7.org/fhir/pq-cmc/StructureDefinition/pharmqualitydrugsubstance"/>
				</meta>
				<text>
					<status value="generated"/>
					<div xmlns="http://www.w3.org/1999/xhtml">
						<p>
							<b>Drug Substance Name: </b>Diphenhydramine hydrochloride</p>
						<p>
							<b>Dosage Form</b>: TABLET  <b> Code</b>: C42998</p>
					</div>
				</text>
				<extension url="http://hl7.org/fhir/pq-cmc/StructureDefinition/extCAS">
					<valueString value="147-24-0"/>
				</extension>
				<extension url="http://hl7.org/fhir/pq-cmc/StructureDefinition/extINN">
					<valueString value="1774"/>
				</extension>
				<extension url="http://hl7.org/fhir/pq-cmc/StructureDefinition/extUSAN">
					<valueString value="diphenhydramine hydrochloride"/>
				</extension>
				<extension url="http://hl7.org/fhir/pq-cmc/StructureDefinition/extIUPACName">
					<valueString value="[2-(diphenylmethoxy)ethyl]dimethylamine hydrochloride"/>
				</extension>
				<extension url="http://hl7.org/fhir/pq-cmc/StructureDefinition/extCoCode">
					<valueString value="PF-340294-DS"/>
				</extension>
				<code>
					<coding>
						<code value="TC2D6JAD40"/>
					</coding>
				</code>
				<description value="[2-(diphenylmethoxy)ethyl]dimethylamine hydrochloride"/>
			</Substance>
		</resource>
	</entry>
	<!-- spec-->
	<entry>
		<fullUrl value="urn:uuid:31651f25-0558-473e-ad1f-c4b78f51033d"/>
		<resource>
			<PlanDefinition>
				<id value="31651f25-0558-473e-ad1f-c4b78f51033d"/>
				<meta>
					<profile value="http://hl7.org/fhir/pq-cmc/StructureDefinition/pharmqualityspecification"/>
				</meta>
				<text>
					<status value="generated"/>
					<div xmlns="http://www.w3.org/1999/xhtml">
						<p>
							<b>TBD Substance -  PC/CMC Quality Specification</b>
						</p>
					</div>
				</text>
				<extension url="http://hl7.org/fhir/pq-cmc/StructureDefinition/extSpecificationStatus">
					<valueCodeableConcept>
						<coding id="SpecStatus">
							<version value="draft"/>
							<code value="C25425"/>
							<display value="Approved"/>
						</coding>
					</valueCodeableConcept>
				</extension>
				<version value="2.0"/>
				<title value="Diphenhydramine hydrochloride Specification"/>
				<status value="active"/>
				<subjectCodeableConcept>
					<coding id="SpecType">
						<version value="draft"/>
						<code value="C134022"/>
						<display value="Drug Substance"/>
					</coding>
				</subjectCodeableConcept>
				<date value="2015-06-14"/>
				<usage value="Testing specification"/>
				<approvalDate value="2015-10-21"/>
				<goal id="goal1">
					<extension url="http://hl7.org/fhir/pq-cmc/StructureDefinition/extAcTestUsage">
						<valueCodeableConcept>
							<coding id="TestUsage">
								<version value="draft"/>
								<code value="C134029"/>
								<display value="Release"/>
							</coding>
						</valueCodeableConcept>
					</extension>
					<description>
						<text value="Acceptance Criteria"/>
					</description>
					<target>
						<extension url="http://hl7.org/fhir/pq-cmc/StructureDefinition/extOriginalText">
							<valueString value="Diphenhydramine hydrochloride appears as white or almost-white crystalline powder"/>
						</extension>
						<extension url="http://hl7.org/fhir/pq-cmc/StructureDefinition/extInterpCode">
							<valueCodeableConcept>
								<coding id="InterpretationCode">
									<version value="draft"/>
									<code value="C48660"/>
									<display value="NA"/>
								</coding>
							</valueCodeableConcept>
						</extension>
						<detailCodeableConcept>
							<text value="white or almost-white crystalline powder"/>
						</detailCodeableConcept>
					</target>
				</goal>
				<goal id="d683ebff-c3bf-4e3b-b3fd-02bde2470334">
					<extension url="http://hl7.org/fhir/pq-cmc/StructureDefinition/extAcTestUsage">
						<valueCodeableConcept>
							<coding id="TestUsage">
								<version value="draft"/>
								<code value="C134029"/>
								<display value="Release"/>
							</coding>
						</valueCodeableConcept>
					</extension>
					<extension url="http://hl7.org/fhir/pq-cmc/StructureDefinition/extAcTestUsage">
						<valueCodeableConcept>
							<coding id="TestUsage">
								<version value="draft"/>
								<code value="C134030"/>
								<display value="Stability"/>
							</coding>
						</valueCodeableConcept>
					</extension>
					<extension url="http://hl7.org/fhir/pq-cmc/StructureDefinition/extAcTestUsage">
						<valueCodeableConcept>
							<coding id="TestUsage">
								<version value="draft"/>
								<code value="C134030"/>
								<display value="Stability"/>
							</coding>
						</valueCodeableConcept>
					</extension>
					<description>
						<text value="Acceptance Criteria"/>
					</description>
					<target>
						<extension url="http://hl7.org/fhir/pq-cmc/StructureDefinition/extOriginalText">
							<valueString value="NLT 4"/>
						</extension>
						<extension url="http://hl7.org/fhir/pq-cmc/StructureDefinition/extInterpCode">
							<valueCodeableConcept>
								<coding id="InterpretationCode">
									<version value="draft"/>
									<code value="C61583"/>
									<display value="NLT"/>
								</coding>
							</valueCodeableConcept>
						</extension>
						<detailQuantity>
							<value value="4">
							</value>
							<comparator value="&gt;=">
							</comparator>
							<unit value="pH">
							</unit>
							<system value="http://unitsofmeasure.org">
							</system>
							<code value="%">
							</code>
						</detailQuantity>
					</target>
					<target>
						<extension url="http://hl7.org/fhir/pq-cmc/StructureDefinition/extOriginalText">
							<valueString value="NMT 6"/>
						</extension>
						<extension url="http://hl7.org/fhir/pq-cmc/StructureDefinition/extInterpCode">
							<valueCodeableConcept>
								<coding id="InterpretationCode">
									<version value="draft"/>
									<code value="C61586"/>
									<display value="NMT"/>
								</coding>
							</valueCodeableConcept>
						</extension>
						<detailQuantity>
							<value value="6">
							</value>
							<comparator value="&lt;=">
							</comparator>
							<unit value="pH">
							</unit>
							<system value="http://unitsofmeasure.org">
							</system>
							<code value="pH">
							</code>
						</detailQuantity>
					</target>
				</goal>
				<goal id="goal4">
					<extension url="http://hl7.org/fhir/pq-cmc/StructureDefinition/extAcTestUsage">
						<valueCodeableConcept>
							<coding id="TestUsage">
								<version value="draft"/>
								<code value="C134030"/>
								<display value="Stability"/>
							</coding>
						</valueCodeableConcept>
					</extension>
					<description>
						<text value="Acceptance Criteria"/>
					</description>
					<target>
						<extension url="http://hl7.org/fhir/pq-cmc/StructureDefinition/extOriginalText">
							<valueString value="NMT 1000 cfu/g"/>
						</extension>
						<extension url="http://hl7.org/fhir/pq-cmc/StructureDefinition/extInterpCode">
							<valueCodeableConcept>
								<coding id="InterpretationCode">
									<version value="draft"/>
									<code value="C61586"/>
									<display value="NMT"/>
								</coding>
							</valueCodeableConcept>
						</extension>
						<detailQuantity>
							<value value="1000">
							</value>
							<comparator value="&lt;=">
							</comparator>
							<unit value="cfu/g">
							</unit>
							<system value="http://unitsofmeasure.org">
							</system>
							<code value="{cfu}/g">
							</code>
						</detailQuantity>
					</target>
				</goal>
				<goal id="f90e11f3-b0bf-493d-8174-cc4333ba3a2c">
					<extension url="http://hl7.org/fhir/pq-cmc/StructureDefinition/extAcTestUsage">
						<valueCodeableConcept>
							<coding id="TestUsage">
								<version value="draft"/>
								<code value="C134030"/>
								<display value="Stability"/>
							</coding>
						</valueCodeableConcept>
					</extension>
					<description>
						<text value="Acceptance Criteria"/>
					</description>
					<target>
						<extension url="http://hl7.org/fhir/pq-cmc/StructureDefinition/extOriginalText">
							<valueString value="Should be Absent/g"/>
						</extension>
						<extension url="http://hl7.org/fhir/pq-cmc/StructureDefinition/extInterpCode">
							<valueCodeableConcept>
								<coding id="InterpretationCode">
									<version value="draft"/>
									<code value="C48660"/>
									<display value="NA"/>
								</coding>
							</valueCodeableConcept>
						</extension>
						<detailCodeableConcept>
							<text value="Should be Absent/g"/>
						</detailCodeableConcept>
					</target>
				</goal>
				<action>
					<extension url="http://hl7.org/fhir/pq-cmc/StructureDefinition/extActionType">
						<valueCode value="Single"/>
					</extension>
					<extension url="http://hl7.org/fhir/pq-cmc/StructureDefinition/extTestMethodOrigin">
						<valueCodeableConcept>
							<coding id="MethodOrigin">
								<version value="draft"/>
								<code value="C96103"/>
								<display value="Proprietary"/>
							</coding>
						</valueCodeableConcept>
					</extension>
					<extension url="http://hl7.org/fhir/pq-cmc/StructureDefinition/extTestOrder">
						<valueDecimal value="1.0"/>
					</extension>
					<title value="Description"/>
					<code>
						<coding id="TestCategory">
							<version value="draft"/>
							<code value="C138990"/>
							<display value="Description"/>
						</coding>
						<text value="Visual"/>
					</code>
					<definitionUri value="POC32801/Product/ver_1.0/Visual"/>
					<action id="idvnm0ta5zyl22fbg2qqxymlmljbbhngwtvwdl4dkgdd20ephziase">
						<title value="Single Stage"/>
						<goalId value="goal1"/>
					</action>
				</action>
				<action>
					<extension url="http://hl7.org/fhir/pq-cmc/StructureDefinition/extActionType">
						<valueCode value="Single"/>
					</extension>
					<extension url="http://hl7.org/fhir/pq-cmc/StructureDefinition/extTestMethodOrigin">
						<valueCodeableConcept>
							<coding id="MethodOrigin">
								<version value="draft"/>
								<code value="C96102"/>
								<display value="Compendial"/>
							</coding>
						</valueCodeableConcept>
					</extension>
					<extension url="http://hl7.org/fhir/pq-cmc/StructureDefinition/extTestOrder">
						<valueDecimal value="5.0"/>
					</extension>
					<title value="pH"/>
					<code>
						<coding id="TestCategory">
							<version value="draft"/>
							<code value="C17771"/>
							<display value="Chemical Properties"/>
						</coding>
						<text value="pH (5% aqueous solution)"/>
					</code>
					<action id="cc447afe-4b94-4e8f-aff0-068714017009">
						<title value="Single Stage"/>
						<goalId value="d683ebff-c3bf-4e3b-b3fd-02bde2470334"/>
					</action>
				</action>
				<action>
					<extension url="http://hl7.org/fhir/pq-cmc/StructureDefinition/extActionType">
						<valueCode value="Single"/>
					</extension>
					<extension url="http://hl7.org/fhir/pq-cmc/StructureDefinition/extTestMethodOrigin">
						<valueCodeableConcept>
							<coding id="MethodOrigin">
								<version value="draft"/>
								<code value="C96103"/>
								<display value="Proprietary"/>
							</coding>
						</valueCodeableConcept>
					</extension>
					<extension url="http://hl7.org/fhir/pq-cmc/StructureDefinition/extTestOrder">
						<valueDecimal value="8.3"/>
					</extension>
					<title value="Total Aerobic microbial count"/>
					<code>
						<coding id="TestCategory">
							<version value="draft"/>
							<code value="C158425"/>
							<display value="Biological Properties"/>
						</coding>
						<text value="Microbial limits"/>
					</code>
					<definitionUri value="POC32801/Product/ver-1.0/MTE-2000"/>
					<action id="id1pghkcl2wcoccmzsip3w32oomjvh1czjjud2uipbmevrklsiim1k">
						<title value="Single Stage"/>
						<goalId value="goal4"/>
					</action>
				</action>
				<action>
					<extension url="http://hl7.org/fhir/pq-cmc/StructureDefinition/extActionType">
						<valueCode value="Single"/>
					</extension>
					<extension url="http://hl7.org/fhir/pq-cmc/StructureDefinition/extTestMethodOrigin">
						<valueCodeableConcept>
							<coding id="MethodOrigin">
								<version value="draft"/>
								<code value="C96103"/>
								<display value="Proprietary"/>
							</coding>
						</valueCodeableConcept>
					</extension>
					<extension url="http://hl7.org/fhir/pq-cmc/StructureDefinition/extTestOrder">
						<valueDecimal value="8.1"/>
					</extension>
					<title value="E.Coli"/>
					<code>
						<coding id="TestCategory">
							<version value="draft"/>
							<code value="C158425"/>
							<display value="Biological Properties"/>
						</coding>
						<text value="Microbial limits"/>
					</code>
					<definitionUri value="POC32801/Product/ver_1.0/MTE-20065"/>
					<action id="idlu0pynrj324dnq3wyiapoafdokm2m3ub1ld1ohmxsjtsivnvs5g">
						<title value="Single Stage"/>
						<goalId value="f90e11f3-b0bf-493d-8174-cc4333ba3a2c"/>
					</action>
				</action>
				<action>
					<extension url="http://hl7.org/fhir/pq-cmc/StructureDefinition/extActionType">
						<valueCode value="Single"/>
					</extension>
					<extension url="http://hl7.org/fhir/pq-cmc/StructureDefinition/extTestMethodOrigin">
						<valueCodeableConcept>
							<coding id="MethodOrigin">
								<version value="draft"/>
								<code value="C96103"/>
								<display value="Proprietary"/>
							</coding>
						</valueCodeableConcept>
					</extension>
					<extension url="http://hl7.org/fhir/pq-cmc/StructureDefinition/extTestOrder">
						<valueDecimal value="8.2"/>
					</extension>
					<title value="salmonella"/>
					<code>
						<coding id="TestCategory">
							<version value="draft"/>
							<code value="C158425"/>
							<display value="Biological Properties"/>
						</coding>
						<text value="Microbial limits"/>
					</code>
					<definitionUri value="POC32801/Product/ver_1.0/MTE-20065"/>
					<action id="idlu0pynrj324dnq3wyiapoafdokm2m3ub1ld1ohmxsjtsivnvs5g">
						<title value="Single Stage"/>
						<goalId value="f90e11f3-b0bf-493d-8174-cc4333ba3a2c"/>
					</action>
				</action>
			</PlanDefinition>
		</resource>
	</entry>
</Bundle>
