<Bundle xmlns="http://hl7.org/fhir" xmlns:xsi="http://www.w3.org/2001/XMLSchema-instance" xsi:schemaLocation="http://hl7.org/fhir file:///C:/PQCMC_IG/input-cache/schemas/R4/fhir-single.xsd">
	<id value="qualityspec-product-profile-example"/>
	<identifier>
		<system value="urn:ietf:rfc:3986"/>
		<value value="urn:uuid:fd63e5c0-ae85-42b2-9a68-39df16247d87"/>
	</identifier>
	<type value="document"/>
	<timestamp value="2017-07-20T14:30:00+01:00"/>
	<entry>
		<fullUrl value="Composition//qualityspec-product-profile-example"/>
		<resource>
			<Composition>
				<meta>
					<profile value="http://hl7.org/fhir/pq-cmc/StructureDefinition/pharmqualityspeccomposition"/>
				</meta>
				<text>
					<status value="generated"/>
					<div xmlns="http://www.w3.org/1999/xhtml">
						<p>
							<b>Generated Narrative with Details TBD</b>
						</p>
					</div>
				</text>
				<extension url="http://hl7.org/fhir/pq-cmc/StructureDefinition/extApplicationNumber">
					<valueString value="012345"/>
				</extension>
				<extension url="http://hl7.org/fhir/pq-cmc/StructureDefinition/extApplicationType">
					<valueCodeableConcept>
						<coding>
							<system value="https://evs.nci.nih.gov"/>
							<version value="draft"/>
							<code value="C73113"/>
							<display value="Abbreviated New Drug Application"/>
						</coding>
					</valueCodeableConcept>
				</extension>
				<identifier>
					<value value="6ffece9c-789f-4405-ac49-6518b6442fc5"/>
				</identifier>
				<status value="preliminary"/>
				<type>
					<coding>
						<system value="http://hl7.org/fhir/pq-cmc/CodeSystem/sectionType"/>
						<code value="32P51"/>
						<display value="Product Specifications"/>
					</coding>
				</type>
				<!-- Added date - it's mandatory -->
				<date value="2020-01-01"/>
				<author>
					<reference value="Organization/95480d76-b621-43b5-9b9b-e7f015134ce6"/>
				</author>
				<title value="Quality Specification for Benadryl HCL"/>
				<section>
					<code>
						<coding>
							<system value="http://hl7.org/fhir/pq-cmc/CodeSystem/sectionType"/>
							<code value="32P51"/>
						</coding>
					</code>
					<text>
						<status value="generated"/>
						<div xmlns="http://www.w3.org/1999/xhtml">Drug Product</div>
					</text>
					<entry>
						<reference value="MedicinalProduct/1c616b24-3895-48c4-9a02-9a64110351ef"/>
					</entry>
				</section>
				<section>
					<code>
						<coding>
							<system value="http://hl7.org/fhir/pq-cmc/CodeSystem/sectionType"/>
							<code value="SP4151"/>
						</coding>
					</code>
					<text>
						<status value="generated"/>
						<div xmlns="http://www.w3.org/1999/xhtml">Quality Specification</div>
					</text>
					<entry>
						<reference value="PlanDefinition/e5cd079b-6c56-4a0f-9f1e-fd64a6f5a7a8"/>
					</entry>
				</section>
			</Composition>
		</resource>
	</entry>
	<!-- org -->
	<entry>
		<fullUrl value="urn:uuid:95480d76-b621-43b5-9b9b-e7f015134ce6"/>
		<resource>
			<Organization>
				<id value="95480d76-b621-43b5-9b9b-e7f015134ce6"/>
				<text>
					<status value="generated"/>
					<div xmlns="http://www.w3.org/1999/xhtml">
						<p>
							<b>Sponsor</b>
						</p>
						<p>
							<b>id</b>: 95480d76-b621-43b5-9b9b-e7f015134ce6</p>
						<p>
							<b>DUNS Number</b>: 489049423</p>
						<p>
							<b>FDA Establishment Identifier</b>: 3000268812</p>
						<p>
							<b>active</b>: true</p>
						<p>
							<b>name</b>: Abbott Biologicals BV</p>
						<p>
							<b>address</b>: Veerweg 12, Olst, 8121, Netherlands</p>
					</div>
				</text>
				<identifier>
					<extension url="http://hl7.org/fhir/pq-cmc/StructureDefinition/extIndentificationType">
						<valueCode value="DUNS"/>
					</extension>
					<value value="489049423"/>
				</identifier>
				<identifier>
					<extension url="http://hl7.org/fhir/pq-cmc/StructureDefinition/extIndentificationType">
						<valueCode value="FEI"/>
					</extension>
					<value value="3000268812"/>
				</identifier>
				<active value="true"/>
				<name value="Abc Biologicals BV"/>
				<address>
					<line value="Veerweg 12"/>
					<city value="Olst"/>
					<postalCode value="8121"/>
					<country value="Netherlands"/>
				</address>
			</Organization>
		</resource>
	</entry>
	<!-- prod -->
	<entry>
		<fullUrl value="urn:uuid:1c616b24-3895-48c4-9a02-9a64110351ef"/>
		<resource>
			<MedicinalProduct>
				<id value="1c616b24-3895-48c4-9a02-9a64110351ef"/>
				<text>
					<status value="generated"/>
					<div xmlns="http://www.w3.org/1999/xhtml">
						<p>
							<b>Drug Product Name</b>: Benadryl HCL</p>
						<p>
							<b>Dosage Form</b>: TABLET  <b> Code</b>: C42998</p>
					</div>
				</text>
				<combinedPharmaceuticalDoseForm>
					<coding id="Dosage">
						<version value="draft"/>
						<code value="C42998"/>
						<display value="TABLET"/>
					</coding>
				</combinedPharmaceuticalDoseForm>
				<name>
					<productName value="Benadryl HCL">
					</productName>
				</name>
			</MedicinalProduct>
		</resource>
	</entry>
	<!-- spec-->
	<entry>
		<fullUrl value="urn:uuid:e5cd079b-6c56-4a0f-9f1e-fd64a6f5a7a8"/>
		<resource>
			<PlanDefinition>
				<id value="e5cd079b-6c56-4a0f-9f1e-fd64a6f5a7a8"/>
				<meta>
					<profile value="http://hl7.org/fhir/pq-cmc/StructureDefinition/pharmqualityspecification"/>
				</meta>
				<text>
					<status value="generated"/>
					<div xmlns="http://www.w3.org/1999/xhtml">
						<p>
							<b>TBD  -  PC/CMC Quality Specification</b>
						</p>
					</div>
				</text>
				<extension url="http://hl7.org/fhir/pq-cmc/StructureDefinition/extSpecificationStatus">
					<valueCodeableConcept>
						<coding>
							<system value="https://evs.nci.nih.gov"/>
							<version value="draft"/>
							<code value="C134011"/>
							<display value="Not Approved"/>
						</coding>
					</valueCodeableConcept>
				</extension>
				<version value="1.0"/>
				<title value="Benadryl HCL Specification"/>
				<status value="active"/>
				<subjectCodeableConcept>
					<coding>
						<system value="https://evs.nci.nih.gov"/>
						<version value="draft"/>
						<code value="C134021"/>
						<display value="Drug Product"/>
					</coding>
				</subjectCodeableConcept>
				<date value="2016-09-24"/>
				<usage value="Testing specification"/>
				<goal id="goal1">
					<extension url="http://hl7.org/fhir/pq-cmc/StructureDefinition/extAdditionalInformation">
						<valueString value="Light to medium light color"/>
					</extension>
					<description>
						<text value="Oval Pink Tablet"/>
					</description>
					<target>
						<detailCodeableConcept>
							<text value="Oval Pink"/>
						</detailCodeableConcept>
					</target>
				</goal>
				<goal id="goal2">
					<description>
						<text value="1.9% - 2.5%"/>
					</description>
					<target>
						<extension url="http://hl7.org/fhir/pq-cmc/StructureDefinition/extAcTestUsage">
							<valueCodeableConcept>
								<coding>
									<system value="https://evs.nci.nih.gov"/>
									<version value="draft"/>
									<code value="C134029"/>
									<display value="Release"/>
								</coding>
							</valueCodeableConcept>
						</extension>
						<extension url="http://hl7.org/fhir/pq-cmc/StructureDefinition/extAcTestUsage">
							<valueCodeableConcept>
								<coding>
									<system value="https://evs.nci.nih.gov"/>
									<version value="draft"/>
									<code value="C134030"/>
									<display value="Stability"/>
								</coding>
							</valueCodeableConcept>
						</extension>
						<extension url="http://hl7.org/fhir/pq-cmc/StructureDefinition/extInterpCode">
							<valueCodeableConcept>
								<coding>
									<system value="https://evs.nci.nih.gov"/>
									<version value="draft"/>
									<code value="C61584"/>
									<display value="MT"/>
								</coding>
							</valueCodeableConcept>
						</extension>
						<detailQuantity>
							<value value="1.9">
							</value>
							<comparator value="&gt;=">
							</comparator>
							<unit value="%">
							</unit>
							<system value="http://unitsofmeasure.org">
							</system>
							<code value="%">
							</code>
						</detailQuantity>
					</target>
				</goal>
				<goal id="goal3">
					<description>
						<text value="range"/>
					</description>
					<target>
						<extension url="http://hl7.org/fhir/pq-cmc/StructureDefinition/extAcTestUsage">
							<valueCodeableConcept>
								<coding>
									<system value="https://evs.nci.nih.gov"/>
									<version value="draft"/>
									<code value="C134029"/>
									<display value="Release"/>
								</coding>
							</valueCodeableConcept>
						</extension>
						<extension url="http://hl7.org/fhir/pq-cmc/StructureDefinition/extAcTestUsage">
							<valueCodeableConcept>
								<coding>
									<system value="https://evs.nci.nih.gov"/>
									<version value="draft"/>
									<code value="C134030"/>
									<display value="Stability"/>
								</coding>
							</valueCodeableConcept>
						</extension>
						<extension url="http://hl7.org/fhir/pq-cmc/StructureDefinition/extInterpCode">
							<valueCodeableConcept>
								<coding>
									<system value="https://evs.nci.nih.gov"/>
									<version value="draft"/>
									<code value="C61585"/>
									<display value="LT"/>
								</coding>
							</valueCodeableConcept>
						</extension>
						<detailQuantity>
							<value value="2.5">
							</value>
							<comparator value="&lt;=">
							</comparator>
							<unit value="%">
							</unit>
							<system value="http://unitsofmeasure.org">
							</system>
							<code value="%">
							</code>
						</detailQuantity>
					</target>
				</goal>
				<goal id="goal4">
					<description>
						<text value="NMT 1000 cfu/g"/>
					</description>
					<target>
						<extension url="http://hl7.org/fhir/pq-cmc/StructureDefinition/extAcTestUsage">
							<valueCodeableConcept>
								<coding>
									<system value="https://evs.nci.nih.gov"/>
									<version value="draft"/>
									<code value="C134030"/>
									<display value="Stability"/>
								</coding>
							</valueCodeableConcept>
						</extension>
						<extension url="http://hl7.org/fhir/pq-cmc/StructureDefinition/extInterpCode">
							<valueCodeableConcept>
								<coding>
									<system value="https://evs.nci.nih.gov"/>
									<version value="draft"/>
									<code value="C61586"/>
									<display value="NMT"/>
								</coding>
							</valueCodeableConcept>
						</extension>
						<detailQuantity>
							<value value="1000">
							</value>
							<comparator value="&lt;">
							</comparator>
							<unit value="cfu/g">
							</unit>
							<system value="http://unitsofmeasure.org">
							</system>
							<code value="{cfu}/g">
							</code>
						</detailQuantity>
					</target>
				</goal>
				<goal id="goal5">
					<description>
						<text value="Should be Absent/g"/>
					</description>
					<target>
						<extension url="http://hl7.org/fhir/pq-cmc/StructureDefinition/extAcTestUsage">
							<valueCodeableConcept>
								<coding>
									<system value="https://evs.nci.nih.gov"/>
									<version value="draft"/>
									<code value="C134030"/>
									<display value="Stability"/>
								</coding>
							</valueCodeableConcept>
						</extension>
						<extension url="http://hl7.org/fhir/pq-cmc/StructureDefinition/extInterpCode">
							<valueCodeableConcept>
								<coding>
									<system value="https://evs.nci.nih.gov"/>
									<version value="draft"/>
									<code value="C48660"/>
									<display value="NA"/>
								</coding>
							</valueCodeableConcept>
						</extension>
						<detailCodeableConcept>
							<text value="Should be Absent/g"/>
						</detailCodeableConcept>
					</target>
				</goal>
				<goal id="goal6">
					<description>
						<text value="no one unit (of the 6) is LT 10%"/>
					</description>
					<target>
						<extension url="http://hl7.org/fhir/pq-cmc/StructureDefinition/extAcTestUsage">
							<valueCodeableConcept>
								<coding>
									<system value="https://evs.nci.nih.gov"/>
									<version value="draft"/>
									<code value="C134029"/>
									<display value="Release"/>
								</coding>
							</valueCodeableConcept>
						</extension>
						<extension url="http://hl7.org/fhir/pq-cmc/StructureDefinition/extAcTestUsage">
							<valueCodeableConcept>
								<coding>
									<system value="https://evs.nci.nih.gov"/>
									<version value="draft"/>
									<code value="C134030"/>
									<display value="Stability"/>
								</coding>
							</valueCodeableConcept>
						</extension>
						<extension url="http://hl7.org/fhir/pq-cmc/StructureDefinition/extInterpCode">
							<valueCodeableConcept>
								<coding>
									<system value="https://evs.nci.nih.gov"/>
									<version value="draft"/>
									<code value="C61585"/>
									<display value="LT"/>
								</coding>
							</valueCodeableConcept>
						</extension>
						<detailQuantity>
							<value value="10">
							</value>
							<comparator value="&lt;=">
							</comparator>
							<unit value="%">
							</unit>
							<system value="http://unitsofmeasure.org">
							</system>
							<code value="%">
							</code>
						</detailQuantity>
					</target>
				</goal>
				<goal id="goal7">
					<description>
						<text value="(average of 12) LT 10%"/>
					</description>
					<target>
						<extension url="http://hl7.org/fhir/pq-cmc/StructureDefinition/extAcTestUsage">
							<valueCodeableConcept>
								<coding>
									<system value="https://evs.nci.nih.gov"/>
									<version value="draft"/>
									<code value="C134029"/>
									<display value="Release"/>
								</coding>
							</valueCodeableConcept>
						</extension>
						<extension url="http://hl7.org/fhir/pq-cmc/StructureDefinition/extAcTestUsage">
							<valueCodeableConcept>
								<coding>
									<system value="https://evs.nci.nih.gov"/>
									<version value="draft"/>
									<code value="C134030"/>
									<display value="Stability"/>
								</coding>
							</valueCodeableConcept>
						</extension>
						<extension url="http://hl7.org/fhir/pq-cmc/StructureDefinition/extInterpCode">
							<valueCodeableConcept>
								<coding>
									<system value="https://evs.nci.nih.gov"/>
									<version value="draft"/>
									<code value="C61585"/>
									<display value="LT"/>
								</coding>
							</valueCodeableConcept>
						</extension>
						<detailQuantity>
							<value value="10">
							</value>
							<comparator value="&lt;=">
							</comparator>
							<unit value="%">
							</unit>
							<system value="http://unitsofmeasure.org">
							</system>
							<code value="%">
							</code>
						</detailQuantity>
					</target>
				</goal>
				<goal id="goal8">
					<description>
						<text value="no one unit is NMT 25%"/>
					</description>
					<target>
						<extension url="http://hl7.org/fhir/pq-cmc/StructureDefinition/extAcTestUsage">
							<valueCodeableConcept>
								<coding>
									<system value="https://evs.nci.nih.gov"/>
									<version value="draft"/>
									<code value="C134029"/>
									<display value="Release"/>
								</coding>
							</valueCodeableConcept>
						</extension>
						<extension url="http://hl7.org/fhir/pq-cmc/StructureDefinition/extAcTestUsage">
							<valueCodeableConcept>
								<coding>
									<system value="https://evs.nci.nih.gov"/>
									<version value="draft"/>
									<code value="C134030"/>
									<display value="Stability"/>
								</coding>
							</valueCodeableConcept>
						</extension>
						<extension url="http://hl7.org/fhir/pq-cmc/StructureDefinition/extInterpCode">
							<valueCodeableConcept>
								<coding>
									<system value="https://evs.nci.nih.gov"/>
									<version value="draft"/>
									<code value="C61586"/>
									<display value="NMT"/>
								</coding>
							</valueCodeableConcept>
						</extension>
						<detailQuantity>
							<value value="25">
							</value>
							<comparator value="&lt;">
							</comparator>
							<unit value="%">
							</unit>
							<system value="http://unitsofmeasure.org">
							</system>
							<code value="%">
							</code>
						</detailQuantity>
					</target>
				</goal>
				<goal id="goal9">
					<description>
						<text value="(average of 24) NMT 10%"/>
					</description>
					<target>
						<extension url="http://hl7.org/fhir/pq-cmc/StructureDefinition/extAcTestUsage">
							<valueCodeableConcept>
								<coding>
									<system value="https://evs.nci.nih.gov"/>
									<version value="draft"/>
									<code value="C134030"/>
									<display value="Stability"/>
								</coding>
							</valueCodeableConcept>
						</extension>
						<extension url="http://hl7.org/fhir/pq-cmc/StructureDefinition/extInterpCode">
							<valueCodeableConcept>
								<coding>
									<system value="https://evs.nci.nih.gov"/>
									<version value="draft"/>
									<code value="C61586"/>
									<display value="NMT"/>
								</coding>
							</valueCodeableConcept>
						</extension>
						<detailQuantity>
							<value value="10">
							</value>
							<comparator value="&lt;">
							</comparator>
							<unit value="%">
							</unit>
							<system value="http://unitsofmeasure.org">
							</system>
							<code value="%">
							</code>
						</detailQuantity>
					</target>
				</goal>
				<goal id="goal10">
					<description>
						<text value="no one unit is NMT 25%"/>
					</description>
					<target>
						<extension url="http://hl7.org/fhir/pq-cmc/StructureDefinition/extAcTestUsage">
							<valueCodeableConcept>
								<coding>
									<system value="https://evs.nci.nih.gov"/>
									<version value="draft"/>
									<code value="C134030"/>
									<display value="Stability"/>
								</coding>
							</valueCodeableConcept>
						</extension>
						<extension url="http://hl7.org/fhir/pq-cmc/StructureDefinition/extInterpCode">
							<valueCodeableConcept>
								<coding>
									<system value="https://evs.nci.nih.gov"/>
									<version value="draft"/>
									<code value="C61586"/>
									<display value="NMT"/>
								</coding>
							</valueCodeableConcept>
						</extension>
						<detailQuantity>
							<value value="25">
							</value>
							<comparator value="&lt;">
							</comparator>
							<unit value="%">
							</unit>
							<system value="http://unitsofmeasure.org">
							</system>
							<code value="%">
							</code>
						</detailQuantity>
					</target>
				</goal>
				<goal id="goal11">
					<description>
						<text value="≥99.0% main peak area"/>
					</description>
					<target>
						<extension url="http://hl7.org/fhir/pq-cmc/StructureDefinition/extAcTestUsage">
							<valueCodeableConcept>
								<coding>
									<system value="https://evs.nci.nih.gov"/>
									<version value="draft"/>
									<code value="C134030"/>
									<display value="Stability"/>
								</coding>
							</valueCodeableConcept>
						</extension>
						<extension url="http://hl7.org/fhir/pq-cmc/StructureDefinition/extInterpCode">
							<valueCodeableConcept>
								<coding>
									<system value="https://evs.nci.nih.gov"/>
									<version value="draft"/>
									<code value="C61584"/>
									<display value="MT"/>
								</coding>
							</valueCodeableConcept>
						</extension>
						<detailQuantity>
							<value value="99.0">
							</value>
							<comparator value="&gt;">
							</comparator>
							<unit value="%">
							</unit>
							<system value="http://unitsofmeasure.org">
							</system>
							<code value="%">
							</code>
						</detailQuantity>
					</target>
				</goal>
				<goal id="goal12">
					<description>
						<text value=" Individual unspecified (%)"/>
					</description>
					<target>
						<extension url="http://hl7.org/fhir/pq-cmc/StructureDefinition/extAcTestUsage">
							<valueCodeableConcept>
								<coding>
									<system value="https://evs.nci.nih.gov"/>
									<version value="draft"/>
									<code value="C134030"/>
									<display value="Stability"/>
								</coding>
							</valueCodeableConcept>
						</extension>
						<extension url="http://hl7.org/fhir/pq-cmc/StructureDefinition/extInterpCode">
							<valueCodeableConcept>
								<coding>
									<system value="https://evs.nci.nih.gov"/>
									<version value="draft"/>
									<code value="C48793"/>
									<display value="EQ"/>
								</coding>
							</valueCodeableConcept>
						</extension>
						<detailQuantity>
							<value value="0.14">
							</value>
							<unit value="%">
							</unit>
							<system value="http://unitsofmeasure.org">
							</system>
							<code value="%">
							</code>
						</detailQuantity>
					</target>
				</goal>
				<action>
					<extension url="http://hl7.org/fhir/pq-cmc/StructureDefinition/extActionType">
						<valueCode value="Single"/>
					</extension>
					<extension url="http://hl7.org/fhir/pq-cmc/StructureDefinition/extTestMethodOrigin">
						<valueCodeableConcept>
							<coding>
								<system value="https://evs.nci.nih.gov"/>
								<version value="draft"/>
								<code value="C96103"/>
								<display value="Proprietary"/>
							</coding>
						</valueCodeableConcept>
					</extension>
					<extension url="http://hl7.org/fhir/pq-cmc/StructureDefinition/extTestOrder">
						<valueDecimal value="1.0"/>
					</extension>
					<title value="Description"/>
					<code>
						<coding>
							<system value="https://evs.nci.nih.gov"/>
							<version value="draft"/>
							<code value="C138990"/>
							<display value="Description"/>
						</coding>
						<text value="Visual"/>
					</code>
					<definitionUri value="POC32801/Product/ver_1.0/Visual"/>
					<action id="idvnm0ta5zyl22fbg2qqxymlmljbbhngwtvwdl4dkgdd20ephziase">
						<title value="Single Stage"/>
						<goalId value="goal1"/>
					</action>
				</action>
				<action>
					<extension url="http://hl7.org/fhir/pq-cmc/StructureDefinition/extActionType">
						<valueCode value="Single"/>
					</extension>
					<extension url="http://hl7.org/fhir/pq-cmc/StructureDefinition/extTestMethodOrigin">
						<valueCodeableConcept>
							<coding>
								<system value="https://evs.nci.nih.gov"/>
								<version value="draft"/>
								<code value="C96102"/>
								<display value="Compendial"/>
							</coding>
						</valueCodeableConcept>
					</extension>
					<extension url="http://hl7.org/fhir/pq-cmc/StructureDefinition/extTestOrder">
						<valueDecimal value="2.0"/>
					</extension>
					<title value="Water % w/v by KF"/>
					<code>
						<coding>
							<system value="https://evs.nci.nih.gov"/>
							<version value="draft"/>
							<code value="C17771"/>
							<display value="Chemical Properties"/>
						</coding>
						<text value="KF"/>
					</code>
					<definitionUri value="POC32801/Product/ver_1.0/USP_&lt;921&gt;"/>
					<action id="idro5omudnrrx3elfnxt5su4q1geqlbm2t3jvzujdogwq1kggm24be">
						<title value="Single Stage"/>
						<goalId value="goal2"/>
						<goalId value="goal3"/>
					</action>
				</action>
				<action>
					<extension url="http://hl7.org/fhir/pq-cmc/StructureDefinition/extActionType">
						<valueCode value="Single"/>
					</extension>
					<extension url="http://hl7.org/fhir/pq-cmc/StructureDefinition/extTestMethodOrigin">
						<valueCodeableConcept>
							<coding>
								<system value="https://evs.nci.nih.gov"/>
								<version value="draft"/>
								<code value="C96103"/>
								<display value="Proprietary"/>
							</coding>
						</valueCodeableConcept>
					</extension>
					<extension url="http://hl7.org/fhir/pq-cmc/StructureDefinition/extTestOrder">
						<valueDecimal value="3.0"/>
					</extension>
					<title value="Total Aerobic microbial count"/>
					<code>
						<coding>
							<system value="https://evs.nci.nih.gov"/>
							<version value="draft"/>
							<code value="C158425"/>
							<display value="Biological Properties"/>
						</coding>
						<text value="Microbial limits"/>
					</code>
					<definitionUri value="POC32801/Product/ver_1.0/MTE-2000"/>
					<action id="id1pghkcl2wcoccmzsip3w32oomjvh1czjjud2uipbmevrklsiim1k">
						<title value="Single Stage"/>
						<goalId value="goal4"/>
					</action>
				</action>
				<action>
					<extension url="http://hl7.org/fhir/pq-cmc/StructureDefinition/extActionType">
						<valueCode value="Single"/>
					</extension>
					<extension url="http://hl7.org/fhir/pq-cmc/StructureDefinition/extTestMethodOrigin">
						<valueCodeableConcept>
							<coding>
								<system value="https://evs.nci.nih.gov"/>
								<version value="draft"/>
								<code value="C96103"/>
								<display value="Proprietary"/>
							</coding>
						</valueCodeableConcept>
					</extension>
					<extension url="http://hl7.org/fhir/pq-cmc/StructureDefinition/extTestOrder">
						<valueDecimal value="4.0"/>
					</extension>
					<title value="E.Coli"/>
					<code>
						<coding>
							<system value="https://evs.nci.nih.gov"/>
							<version value="draft"/>
							<code value="C158425"/>
							<display value="Biological Properties"/>
						</coding>
						<text value="Microbial limits"/>
					</code>
					<definitionUri value="POC32801/Product/ver_1.0/MTE-20065"/>
					<action id="idlu0pynrj324dnq3wyiapoafdokm2m3ub1ld1ohmxsjtsivnvs5g">
						<title value="Single Stage"/>
						<goalId value="goal5"/>
					</action>
				</action>
				<action>
					<extension url="http://hl7.org/fhir/pq-cmc/StructureDefinition/extActionType">
						<valueCode value="Single"/>
					</extension>
					<extension url="http://hl7.org/fhir/pq-cmc/StructureDefinition/extTestMethodOrigin">
						<valueCodeableConcept>
							<coding>
								<system value="https://evs.nci.nih.gov"/>
								<version value="draft"/>
								<code value="C96102"/>
								<display value="Compendial"/>
							</coding>
						</valueCodeableConcept>
					</extension>
					<extension url="http://hl7.org/fhir/pq-cmc/StructureDefinition/extTestOrder">
						<valueDecimal value="5.0"/>
					</extension>
					<title value="Dissolution in Acid Stage (2 hours)"/>
					<code>
						<coding>
							<system value="https://evs.nci.nih.gov"/>
							<version value="draft"/>
							<code value="C60819"/>
							<display value="Assay"/>
						</coding>
						<text value="711"/>
					</code>
					<reason>
						<coding>
							<system value="https://evs.nci.nih.gov"/>
							<version value="draft"/>
							<code value="C134029"/>
							<display value="Release"/>
						</coding>
					</reason>
					<definitionUri value="POC32801/Product/ver_1.0/USP&lt;711&gt;"/>
					<action id="idjsuiv3smxndoho0nb5y551juwdr31madwensw2bac2ngjaoyyo5e">
						<title value="First Stage"/>
						<goalId value="goal6"/>
					</action>
					<action id="iddqp5os1advhhgopfugbe2dgknqqhhugouvcdrohmdqac3oluwpm">
						<title value="Second Stage"/>
						<goalId value="goal7"/>
						<goalId value="goal8"/>
						<relatedAction>
							<actionId value="d39aeafc-901c-4386-9642-22438da8e444"/>
							<relationship value="after"/>
						</relatedAction>
					</action>
					<action id="idrwszgobaqa4lrnpqcgc32mzoeoikjurhtbcprk5lqmdlk0ieg3e">
						<title value="Third Stage"/>
						<goalId value="goal9"/>
						<goalId value="goal10"/>
						<relatedAction>
							<actionId value="9fca490e-ef23-4fa4-922a-527956f60faf"/>
							<relationship value="after"/>
						</relatedAction>
					</action>
				</action>
				<action>
					<extension url="http://hl7.org/fhir/pq-cmc/StructureDefinition/extActionType">
						<valueCode value="Alternate"/>
					</extension>
					<relatedAction>
						<actionId value="95480d76-b621-43b5-9b9b-e7f015134ce6"/>
						<relationship value="concurrent"/>
					</relatedAction>
					<relatedAction>
						<actionId value="e915468b-c30f-4a03-baa9-ed90f02f3c70"/>
						<relationship value="concurrent"/>
					</relatedAction>
					<selectionBehavior value="exactly-one"/>
				</action>
				<action>
					<extension url="http://hl7.org/fhir/pq-cmc/StructureDefinition/extActionType">
						<valueCode value="Single"/>
					</extension>
					<extension url="http://hl7.org/fhir/pq-cmc/StructureDefinition/extTestMethodOrigin">
						<valueCodeableConcept>
							<coding>
								<system value="https://evs.nci.nih.gov"/>
								<version value="draft"/>
								<code value="C96103"/>
								<display value="Proprietary"/>
							</coding>
						</valueCodeableConcept>
					</extension>
					<extension url="http://hl7.org/fhir/pq-cmc/StructureDefinition/extReferenceToProcedure">
						<valueString value="../32s42-analyt-proc/analytical-procedures-size-exclusion-hplc.pdff"/>
					</extension>
					<extension url="http://hl7.org/fhir/pq-cmc/StructureDefinition/extTestOrder">
						<valueDecimal value="6.1"/>
					</extension>
					<title value="Size exclusion HPLC"/>
					<code>
						<coding>
							<system value="https://evs.nci.nih.gov"/>
							<version value="draft"/>
							<code value="C158423"/>
							<display value="Impurities"/>
						</coding>
						<text value="Size exclusion HPLC"/>
					</code>
					<goalId value="goal11"/>
					<definitionUri value="../32s42-analyt-proc/analytical-procedures-size-exclusion-hplc.pdff"/>
					<action id="7aa1a85c-a334-4c70-9863-787ec7de0c62"/>
				</action>
				<action>
					<extension url="http://hl7.org/fhir/pq-cmc/StructureDefinition/extActionType">
						<valueCode value="Single"/>
					</extension>
					<extension url="http://hl7.org/fhir/pq-cmc/StructureDefinition/extTestMethodOrigin">
						<valueCodeableConcept>
							<coding>
								<system value="https://evs.nci.nih.gov"/>
								<version value="draft"/>
								<code value="C96103"/>
								<display value="Proprietary"/>
							</coding>
						</valueCodeableConcept>
					</extension>
					<extension url="http://hl7.org/fhir/pq-cmc/StructureDefinition/extTestOrder">
						<valueDecimal value="6.2"/>
					</extension>
					<title value="Reversed Phase HPLC"/>
					<code>
						<coding>
							<system value="https://evs.nci.nih.gov"/>
							<version value="draft"/>
							<code value="C158423"/>
							<display value="Impurities"/>
						</coding>
						<text value="Reversed Phase HPLC"/>
					</code>
					<goalId value="goal11"/>
					<definitionUri value="../32s42-analyt-proc/analytical-procedures-reversed-phase-hplc.pdf"/>
					<action id="95480d76-b621-43b5-9b9b-e7f015134ce6"/>
				</action>
				<action>
					<extension url="http://hl7.org/fhir/pq-cmc/StructureDefinition/extActionType">
						<valueCode value="Single"/>
					</extension>
					<extension url="http://hl7.org/fhir/pq-cmc/StructureDefinition/extTestMethodOrigin">
						<valueCodeableConcept>
							<coding>
								<system value="https://evs.nci.nih.gov"/>
								<version value="draft"/>
								<code value="C96102"/>
								<display value="Compendial"/>
							</coding>
						</valueCodeableConcept>
					</extension>
					<extension url="http://hl7.org/fhir/pq-cmc/StructureDefinition/extTestOrder">
						<valueDecimal value="7.0"/>
					</extension>
					<extension url="http://hl7.org/fhir/pq-cmc/StructureDefinition/extRelativeRetentionTime">
						<valueString value="RRT1.28"/>
					</extension>
					<title value="Degraded Product Impurities"/>
					<code>
						<coding>
							<system value="https://evs.nci.nih.gov"/>
							<version value="draft"/>
							<code value="C17771"/>
							<display value="Chemical Properties"/>
						</coding>
						<text value="Deg Products"/>
					</code>
					<reason>
						<coding>
							<system value="https://evs.nci.nih.gov"/>
							<version value="draft"/>
							<code value="C134030"/>
							<display value="Stability"/>
						</coding>
					</reason>
					<definitionUri value="POC32801/Product/ver_1.0/DegImpur"/>
					<action id="500ec5da-bd6f-4a0a-bd8b-23b670eb2f9b">
						<title value="Single Stage"/>
						<goalId value="goal12"/>
					</action>
				</action>
			</PlanDefinition>
		</resource>
	</entry>
</Bundle>
